File: Implementación/Bases de datos/Concrete_Data.csv
Cement (component 1)(kg in a m^3 mixture);Blast Furnace Slag (component 2)(kg in a m^3 mixture);Fly Ash (component 3)(kg in a m^3 mixture);Water  (component 4)(kg in a m^3 mixture);Superplasticizer (component 5)(kg in a m^3 mixture);Coarse Aggregate  (component 6)(kg in a m^3 mixture);Fine Aggregate (component 7)(kg in a m^3 mixture);Age (day);Concrete compressive strength(MPa. megapascals)
540;0;0;162;2.5;1040;676;28;80
540;0;0;162;2.5;1055;676;28;61.9
332.5;142.5;0;228;0;932;594;270;40.3
332.5;142.5;0;228;0;932;594;365;41.1
198.6;132.4;0;192;0;978.4;825.5;360;44.3
266;114;0;228;0;932;670;90;47
380;95;0;228;0;932;594;365;43.7
380;95;0;228;0;932;594;28;36.4
266;114;0;228;0;932;670;28;45.9
475;0;0;228;0;932;594;28;39.3
198.6;132.4;0;192;0;978.4;825.5;90;38.1
198.6;132.4;0;192;0;978.4;825.5;28;28
427.5;47.5;0;228;0;932;594;270;43
190;190;0;228;0;932;670;90;42.3
304;76;0;228;0;932;670;28;47.8
380;0;0;228;0;932;670;90;52.9
139.6;209.4;0;192;0;1047;806.9;90;39.4
342;38;0;228;0;932;670;365;56.1
380;95;0;228;0;932;594;90;40.6
475;0;0;228;0;932;594;180;42.6
427.5;47.5;0;228;0;932;594;180;41.8
139.6;209.4;0;192;0;1047;806.9;28;28.2
139.6;209.4;0;192;0;1047;806.9;3;8.1
139.6;209.4;0;192;0;1047;806.9;180;44.2
380;0;0;228;0;932;670;365;52.5
380;0;0;228;0;932;670;270;53.3
380;95;0;228;0;932;594;270;41.2
342;38;0;228;0;932;670;180;52.1
427.5;47.5;0;228;0;932;594;28;37.4
475;0;0;228;0;932;594;7;38.6
304;76;0;228;0;932;670;365;55.3
266;114;0;228;0;932;670;365;52.9
198.6;132.4;0;192;0;978.4;825.5;180;41.7
475;0;0;228;0;932;594;270;42.1
190;190;0;228;0;932;670;365;53.7
237.5;237.5;0;228;0;932;594;270;38.4
237.5;237.5;0;228;0;932;594;28;30.1
332.5;142.5;0;228;0;932;594;90;37.7
475;0;0;228;0;932;594;90;42.2
237.5;237.5;0;228;0;932;594;180;36.3
342;38;0;228;0;932;670;90;50.5
427.5;47.5;0;228;0;932;594;365;43.7
237.5;237.5;0;228;0;932;594;365;39
380;0;0;228;0;932;670;180;53.1
427.5;47.5;0;228;0;932;594;90;41.5
427.5;47.5;0;228;0;932;594;7;35.1
349;0;0;192;0;1047;806.9;3;15
380;95;0;228;0;932;594;180;40.8
237.5;237.5;0;228;0;932;594;7;26.3
380;95;0;228;0;932;594;7;32.8
332.5;142.5;0;228;0;932;594;180;39.8
190;190;0;228;0;932;670;180;46.9
237.5;237.5;0;228;0;932;594;90;33.1
304;76;0;228;0;932;670;90;49.2
139.6;209.4;0;192;0;1047;806.9;7;14.6
198.6;132.4;0;192;0;978.4;825.5;7;14.6
475;0;0;228;0;932;594;365;41.9
198.6;132.4;0;192;0;978.4;825.5;3;9.1
304;76;0;228;0;932;670;180;50.9
332.5;142.5;0;228;0;932;594;28;33
304;76;0;228;0;932;670;270;54.4
266;114;0;228;0;932;670;270;51.7
310;0;0;192;0;971;850.6;3;9.9
190;190;0;228;0;932;670;270;50.7
266;114;0;228;0;932;670;180;48.7
342;38;0;228;0;932;670;270;55.1
139.6;209.4;0;192;0;1047;806.9;360;44.7
332.5;142.5;0;228;0;932;594;7;30.3
190;190;0;228;0;932;670;28;40.9
485;0;0;146;0;1120;800;28;72
374;189.2;0;170.1;10.1;926.1;756.7;3;34.4
313.3;262.2;0;175.5;8.6;1046.9;611.8;3;28.8
425;106.3;0;153.5;16.5;852.1;887.1;3;33.4
425;106.3;0;151.4;18.6;936;803.7;3;36.3
375;93.8;0;126.6;23.4;852.1;992.6;3;29
475;118.8;0;181.1;8.9;852.1;781.5;3;37.8
469;117.2;0;137.8;32.2;852.1;840.5;3;40.2
425;106.3;0;153.5;16.5;852.1;887.1;3;33.4
388.6;97.1;0;157.9;12.1;852.1;925.7;3;28.1
531.3;0;0;141.8;28.2;852.1;893.7;3;41.3
425;106.3;0;153.5;16.5;852.1;887.1;3;33.4
318.8;212.5;0;155.7;14.3;852.1;880.4;3;25.2
401.8;94.7;0;147.4;11.4;946.8;852.1;3;41.1
362.6;189;0;164.9;11.6;944.7;755.8;3;35.3
323.7;282.8;0;183.8;10.3;942.7;659.9;3;28.3
379.5;151.2;0;153.9;15.9;1134.3;605;3;28.6
362.6;189;0;164.9;11.6;944.7;755.8;3;35.3
286.3;200.9;0;144.7;11.2;1004.6;803.7;3;24.4
362.6;189;0;164.9;11.6;944.7;755.8;3;35.3
439;177;0;186;11.1;884.9;707.9;3;39.3
389.9;189;0;145.9;22;944.7;755.8;3;40.6
362.6;189;0;164.9;11.6;944.7;755.8;3;35.3
337.9;189;0;174.9;9.5;944.7;755.8;3;24.1
374;189.2;0;170.1;10.1;926.1;756.7;7;46.2
313.3;262.2;0;175.5;8.6;1046.9;611.8;7;42.8
425;106.3;0;153.5;16.5;852.1;887.1;7;49.2
425;106.3;0;151.4;18.6;936;803.7;7;46.8
375;93.8;0;126.6;23.4;852.1;992.6;7;45.7
475;118.8;0;181.1;8.9;852.1;781.5;7;55.6
469;117.2;0;137.8;32.2;852.1;840.5;7;54.9
425;106.3;0;153.5;16.5;852.1;887.1;7;49.2
388.6;97.1;0;157.9;12.1;852.1;925.7;7;34.9
531.3;0;0;141.8;28.2;852.1;893.7;7;46.9
425;106.3;0;153.5;16.5;852.1;887.1;7;49.2
318.8;212.5;0;155.7;14.3;852.1;880.4;7;33.4
401.8;94.7;0;147.4;11.4;946.8;852.1;7;54.1
362.6;189;0;164.9;11.6;944.7;755.8;7;55.9
323.7;282.8;0;183.8;10.3;942.7;659.9;7;49.8
379.5;151.2;0;153.9;15.9;1134.3;605;7;47.1
362.6;189;0;164.9;11.6;944.7;755.8;7;55.9
286.3;200.9;0;144.7;11.2;1004.6;803.7;7;38
362.6;189;0;164.9;11.6;944.7;755.8;7;55.9
439;177;0;186;11.1;884.9;707.9;7;56.1
389.9;189;0;145.9;22;944.7;755.8;7;59.1
362.6;189;0;164.9;11.6;944.7;755.8;7;22.9
337.9;189;0;174.9;9.5;944.7;755.8;7;35.1
374;189.2;0;170.1;10.1;926.1;756.7;28;61.1
313.3;262.2;0;175.5;8.6;1046.9;611.8;28;59.8
425;106.3;0;153.5;16.5;852.1;887.1;28;60.3
425;106.3;0;151.4;18.6;936;803.7;28;61.8
375;93.8;0;126.6;23.4;852.1;992.6;28;56.7
475;118.8;0;181.1;8.9;852.1;781.5;28;68.3
469;117.2;0;137.8;32.2;852.1;840.5;28;66.9
425;106.3;0;153.5;16.5;852.1;887.1;28;60.3
388.6;97.1;0;157.9;12.1;852.1;925.7;28;50.7
531.3;0;0;141.8;28.2;852.1;893.7;28;56.4
425;106.3;0;153.5;16.5;852.1;887.1;28;60.3
318.8;212.5;0;155.7;14.3;852.1;880.4;28;55.5
401.8;94.7;0;147.4;11.4;946.8;852.1;28;68.5
362.6;189;0;164.9;11.6;944.7;755.8;28;71.3
323.7;282.8;0;183.8;10.3;942.7;659.9;28;74.7
379.5;151.2;0;153.9;15.9;1134.3;605;28;52.2
362.6;189;0;164.9;11.6;944.7;755.8;28;71.3
286.3;200.9;0;144.7;11.2;1004.6;803.7;28;67.7
362.6;189;0;164.9;11.6;944.7;755.8;28;71.3
439;177;0;186;11.1;884.9;707.9;28;66
389.9;189;0;145.9;22;944.7;755.8;28;74.5
362.6;189;0;164.9;11.6;944.7;755.8;28;71.3
337.9;189;0;174.9;9.5;944.7;755.8;28;49.9
374;189.2;0;170.1;10.1;926.1;756.7;56;63.4
313.3;262.2;0;175.5;8.6;1046.9;611.8;56;64.9
425;106.3;0;153.5;16.5;852.1;887.1;56;64.3
425;106.3;0;151.4;18.6;936;803.7;56;64.9
375;93.8;0;126.6;23.4;852.1;992.6;56;60.2
475;118.8;0;181.1;8.9;852.1;781.5;56;72.3
469;117.2;0;137.8;32.2;852.1;840.5;56;69.3
425;106.3;0;153.5;16.5;852.1;887.1;56;64.3
388.6;97.1;0;157.9;12.1;852.1;925.7;56;55.2
531.3;0;0;141.8;28.2;852.1;893.7;56;58.8
425;106.3;0;153.5;16.5;852.1;887.1;56;64.3
318.8;212.5;0;155.7;14.3;852.1;880.4;56;66.1
401.8;94.7;0;147.4;11.4;946.8;852.1;56;73.7
362.6;189;0;164.9;11.6;944.7;755.8;56;77.3
323.7;282.8;0;183.8;10.3;942.7;659.9;56;80.2
379.5;151.2;0;153.9;15.9;1134.3;605;56;54.9
362.6;189;0;164.9;11.6;944.7;755.8;56;77.3
286.3;200.9;0;144.7;11.2;1004.6;803.7;56;73
362.6;189;0;164.9;11.6;944.7;755.8;56;77.3
439;177;0;186;11.1;884.9;707.9;56;71.7
389.9;189;0;145.9;22;944.7;755.8;56;79.4
362.6;189;0;164.9;11.6;944.7;755.8;56;77.3
337.9;189;0;174.9;9.5;944.7;755.8;56;59.9
374;189.2;0;170.1;10.1;926.1;756.7;91;64.9
313.3;262.2;0;175.5;8.6;1046.9;611.8;91;66.6
425;106.3;0;153.5;16.5;852.1;887.1;91;65.2
425;106.3;0;151.4;18.6;936;803.7;91;66.7
375;93.8;0;126.6;23.4;852.1;992.6;91;62.5
475;118.8;0;181.1;8.9;852.1;781.5;91;74.2
469;117.2;0;137.8;32.2;852.1;840.5;91;70.7
425;106.3;0;153.5;16.5;852.1;887.1;91;65.2
388.6;97.1;0;157.9;12.1;852.1;925.7;91;57.6
531.3;0;0;141.8;28.2;852.1;893.7;91;59.2
425;106.3;0;153.5;16.5;852.1;887.1;91;65.2
318.8;212.5;0;155.7;14.3;852.1;880.4;91;68.1
401.8;94.7;0;147.4;11.4;946.8;852.1;91;75.5
362.6;189;0;164.9;11.6;944.7;755.8;91;79.3
379.5;151.2;0;153.9;15.9;1134.3;605;91;56.5
362.6;189;0;164.9;11.6;944.7;755.8;91;79.3
286.3;200.9;0;144.7;11.2;1004.6;803.7;91;76.8
362.6;189;0;164.9;11.6;944.7;755.8;91;79.3
439;177;0;186;11.1;884.9;707.9;91;73.3
389.9;189;0;145.9;22;944.7;755.8;91;82.6
362.6;189;0;164.9;11.6;944.7;755.8;91;79.3
337.9;189;0;174.9;9.5;944.7;755.8;91;67.8
222.36;0;96.67;189.29;4.46;967.08;870.32;3;11.6
222.36;0;96.67;189.29;4.46;967.08;870.32;14;24.4
222.36;0;96.67;189.29;4.46;967.08;870.32;28;24.9
222.36;0;96.67;189.29;4.46;967.08;870.32;56;29.4
222.36;0;96.67;189.29;4.46;967.08;870.32;100;40.7
233.81;0;94.58;197.89;4.57;947.04;852.16;3;10.4
233.81;0;94.58;197.89;4.57;947.04;852.16;14;22.1
233.81;0;94.58;197.89;4.57;947.04;852.16;28;22.8
233.81;0;94.58;197.89;4.57;947.04;852.16;56;27.7
233.81;0;94.58;197.89;4.57;947.04;852.16;100;34.6
194.68;0;100.52;165.62;7.48;1006.4;905.9;3;12.5
194.68;0;100.52;165.62;7.48;1006.4;905.9;14;25
194.68;0;100.52;165.62;7.48;1006.4;905.9;28;25.7
194.68;0;100.52;165.62;7.48;1006.4;905.9;56;34
194.68;0;100.52;165.62;7.48;1006.4;905.9;100;37.3
190.68;0;125.4;162.14;7.77;1090;804.01;3;15
190.68;0;125.4;162.14;7.77;1090;804.01;14;21.1
190.68;0;125.4;162.14;7.77;1090;804.01;28;26.4
190.68;0;125.4;162.14;7.77;1090;804.01;56;35.3
190.68;0;125.4;162.14;7.77;1090;804.01;100;40.6
212.07;0;121.62;180.31;5.69;1057.6;779.32;3;12.5
212.07;0;121.62;180.31;5.69;1057.6;779.32;14;20.9
212.07;0;121.62;180.31;5.69;1057.6;779.32;28;24.9
212.07;0;121.62;180.31;5.69;1057.6;779.32;56;34.2
212.07;0;121.62;180.31;5.69;1057.6;779.32;100;39.6
229.97;0;118.31;195.47;4.63;1029.4;758.59;3;10
229.97;0;118.31;195.47;4.63;1029.4;758.59;14;20.1
229.97;0;118.31;195.47;4.63;1029.4;758.59;28;24.5
229.97;0;118.31;195.47;4.63;1029.4;758.59;56;31.5
229.97;0;118.31;195.47;4.63;1029.4;758.59;100;35.3
190.34;0;125.18;161.85;9.88;1088.1;802.59;3;9.4
190.34;0;125.18;161.85;9.88;1088.1;802.59;14;22.7
190.34;0;125.18;161.85;9.88;1088.1;802.59;28;28.5
190.34;0;125.18;161.85;9.88;1088.1;802.59;56;38.6
190.34;0;125.18;161.85;9.88;1088.1;802.59;100;40.4
166.09;0;163.27;176.46;4.49;1058.6;780.09;3;10.8
166.09;0;163.27;176.46;4.49;1058.6;780.09;14;25.5
166.09;0;163.27;176.46;4.49;1058.6;780.09;28;21.5
166.09;0;163.27;176.46;4.49;1058.6;780.09;56;28.6
166.09;0;163.27;176.46;4.49;1058.6;780.09;100;33.5
167.95;42.08;163.83;121.75;5.72;1058.7;780.11;3;7.7
167.95;42.08;163.83;121.75;5.72;1058.7;780.11;14;17.8
167.95;42.08;163.83;121.75;5.72;1058.7;780.11;28;24.2
167.95;42.08;163.83;121.75;5.72;1058.7;780.11;56;32.9
167.95;42.08;163.83;121.75;5.72;1058.7;780.11;100;39.2
213.72;98.05;24.51;181.71;6.86;1065.8;785.38;3;18
213.72;98.05;24.51;181.71;6.86;1065.8;785.38;14;30.4
213.72;98.05;24.51;181.71;6.86;1065.8;785.38;28;45.7
213.72;98.05;24.51;181.71;6.86;1065.8;785.38;56;50.8
213.72;98.05;24.51;181.71;6.86;1065.8;785.38;100;53.9
213.76;98.06;24.52;181.74;6.65;1066;785.52;3;13.2
213.76;98.06;24.52;181.74;6.65;1066;785.52;14;17.8
213.76;98.06;24.52;181.74;6.65;1066;785.52;28;40.2
213.76;98.06;24.52;181.74;6.65;1066;785.52;56;47.1
213.76;98.06;24.52;181.74;6.65;1066;785.52;100;50
229.68;0;118.16;195.23;6.13;1028.1;757.63;3;13.4
229.68;0;118.16;195.23;6.13;1028.1;757.63;14;22.3
229.68;0;118.16;195.23;6.13;1028.1;757.63;28;24.5
229.68;0;118.16;195.23;6.13;1028.1;757.63;56;31.4
229.68;0;118.16;195.23;6.13;1028.1;757.63;100;40.9
238.05;0;94.11;186.66;7;949.91;847.01;3;19.9
238.05;0;94.11;186.66;7;949.91;847.01;14;25.7
238.05;0;94.11;186.66;7;949.91;847.01;28;30.2
238.05;0;94.11;186.66;7;949.91;847.01;56;39.6
238.05;0;94.11;186.66;7;949.91;847.01;100;44.3
250;0;95.69;187.42;5.53;956.86;861.17;3;13.8
250;0;95.69;187.42;5.53;956.86;861.17;14;24.9
250;0;95.69;187.42;5.53;956.86;861.17;28;29.2
250;0;95.69;187.42;5.53;956.86;861.17;56;38.3
250;0;95.69;187.42;5.53;956.86;861.17;100;42.3
212.52;0;100.37;159.32;8.71;1007.8;903.59;3;13.5
212.52;0;100.37;159.32;8.71;1007.8;903.59;14;26.3
212.52;0;100.37;159.32;8.71;1007.8;903.59;28;31.6
212.52;0;100.37;159.32;8.71;1007.8;903.59;56;42.5
212.52;0;100.37;159.32;8.71;1007.8;903.59;100;42.9
212.57;0;100.39;159.35;10.37;1003.8;903.79;3;13.3
212.57;0;100.39;159.35;10.37;1003.8;903.79;14;25.4
212.57;0;100.39;159.35;10.37;1003.8;903.79;28;37.4
212.57;0;100.39;159.35;10.37;1003.8;903.79;56;44.4
212.57;0;100.39;159.35;10.37;1003.8;903.79;100;47.7
212;0;124.78;159;7.84;1085.4;799.54;3;19.5
212;0;124.78;159;7.84;1085.4;799.54;14;31.4
212;0;124.78;159;7.84;1085.4;799.54;28;38.5
212;0;124.78;159;7.84;1085.4;799.54;56;45.1
212;0;124.78;159;7.84;1085.4;799.54;100;47.8
231.75;0;121.62;173.96;6.72;1056.4;778.45;3;15.4
231.75;0;121.62;173.96;6.72;1056.4;778.45;14;26.8
231.75;0;121.62;173.96;6.72;1056.4;778.45;28;33.7
231.75;0;121.62;173.96;6.72;1056.4;778.45;56;42.7
231.75;0;121.62;173.96;6.72;1056.4;778.45;100;45.8
251.37;0;118.27;188.45;5.75;1028.4;757.73;3;17.2
251.37;0;118.27;188.45;5.75;1028.4;757.73;14;29.9
251.37;0;118.27;188.45;5.75;1028.4;757.73;28;29.7
251.37;0;118.27;188.45;5.75;1028.4;757.73;56;37
251.37;0;118.27;188.45;5.75;1028.4;757.73;100;43.6
251.37;0;118.27;188.45;6.35;1028.4;757.73;3;13.1
251.37;0;118.27;188.45;6.35;1028.4;757.73;14;24.4
251.37;0;118.27;188.45;6.35;1028.4;757.73;28;32.7
251.37;0;118.27;188.45;6.35;1028.4;757.73;56;36.6
251.37;0;118.27;188.45;6.35;1028.4;757.73;100;44.2
181.38;0;167.01;169.59;7.56;1055.6;777.8;3;13.6
181.38;0;167.01;169.59;7.56;1055.6;777.8;14;21.6
181.38;0;167.01;169.59;7.56;1055.6;777.8;28;27.8
181.38;0;167.01;169.59;7.56;1055.6;777.8;56;35.6
181.38;0;167.01;169.59;7.56;1055.6;777.8;100;45.4
182.04;45.21;121.97;170.21;8.19;1059.4;780.65;3;7.3
182.04;45.21;121.97;170.21;8.19;1059.4;780.65;14;21.5
182.04;45.21;121.97;170.21;8.19;1059.4;780.65;28;31.3
182.04;45.21;121.97;170.21;8.19;1059.4;780.65;56;43.5
182.04;45.21;121.97;170.21;8.19;1059.4;780.65;100;48.7
168.88;42.22;124.25;158.33;10.83;1080.8;796.15;3;7.4
168.88;42.22;124.25;158.33;10.83;1080.8;796.15;14;23.5
168.88;42.22;124.25;158.33;10.83;1080.8;796.15;28;31.1
168.88;42.22;124.25;158.33;10.83;1080.8;796.15;56;39.1
168.88;42.22;124.25;158.33;10.83;1080.8;796.15;100;48.2
290.35;0;96.18;168.08;9.41;961.18;865;3;22.5
290.35;0;96.18;168.08;9.41;961.18;865;14;34.7
290.35;0;96.18;168.08;9.41;961.18;865;28;34.7
290.35;0;96.18;168.08;9.41;961.18;865;56;45.1
290.35;0;96.18;168.08;9.41;961.18;865;100;49
277.05;0;97.39;160.6;11.83;973.9;875.61;3;23.1
277.05;0;97.39;160.6;11.83;973.9;875.61;14;41.9
277.05;0;97.39;160.6;11.83;973.9;875.61;28;48.3
277.05;0;97.39;160.6;11.83;973.9;875.61;56;51
277.05;0;97.39;160.6;11.83;973.9;875.61;100;55.6
295.71;0;95.64;171.54;8.87;955.14;859.2;3;22.9
295.71;0;95.64;171.54;8.87;955.14;859.2;14;35.2
295.71;0;95.64;171.54;8.87;955.14;859.2;28;39.9
295.71;0;95.64;171.54;8.87;955.14;859.2;56;48.7
295.71;0;95.64;171.54;8.87;955.14;859.2;100;52
251.81;0;99.94;146.14;12.35;1006;899.76;3;21
251.81;0;99.94;146.14;12.35;1006;899.76;14;33.4
251.81;0;99.94;146.14;12.35;1006;899.76;28;33.9
251.81;0;99.94;146.14;12.35;1006;899.76;56;44.1
251.81;0;99.94;146.14;12.35;1006;899.76;100;45.4
249.1;0;98.75;158.11;12.8;987.76;889.01;3;15.4
249.1;0;98.75;158.11;12.8;987.76;889.01;14;28.7
249.1;0;98.75;158.11;12.8;987.76;889.01;28;30.8
249.1;0;98.75;158.11;12.8;987.76;889.01;56;42
249.1;0;98.75;158.11;12.8;987.76;889.01;100;51.1
252.31;0;98.75;146.25;14.17;987.76;889.01;3;21.8
252.31;0;98.75;146.25;14.17;987.76;889.01;14;42.3
252.31;0;98.75;146.25;14.17;987.76;889.01;28;50.6
252.31;0;98.75;146.25;14.17;987.76;889.01;56;55.8
252.31;0;98.75;146.25;14.17;987.76;889.01;100;60.9
246.83;0;125.08;143.3;11.99;1086.8;800.89;3;23.5
246.83;0;125.08;143.3;11.99;1086.8;800.89;14;42.2
246.83;0;125.08;143.3;11.99;1086.8;800.89;28;52.5
246.83;0;125.08;143.3;11.99;1086.8;800.89;56;60.3
246.83;0;125.08;143.3;11.99;1086.8;800.89;100;66.4
275.07;0;121.35;159.48;9.9;1053.6;777.5;3;23.8
275.07;0;121.35;159.48;9.9;1053.6;777.5;14;38.8
275.07;0;121.35;159.48;9.9;1053.6;777.5;28;51.3
275.07;0;121.35;159.48;9.9;1053.6;777.5;56;56.8
275.07;0;121.35;159.48;9.9;1053.6;777.5;100;58.6
297.16;0;117.54;174.8;9.52;1022.8;753.45;3;21.9
297.16;0;117.54;174.8;9.52;1022.8;753.45;14;37
297.16;0;117.54;174.8;9.52;1022.8;753.45;28;47.4
297.16;0;117.54;174.8;9.52;1022.8;753.45;56;52
297.16;0;117.54;174.8;9.52;1022.8;753.45;100;56.7
213.74;0;174.74;154.79;10.16;1053.5;776.35;3;17.6
213.74;0;174.74;154.79;10.16;1053.5;776.35;14;33.7
213.74;0;174.74;154.79;10.16;1053.5;776.35;28;40.1
213.74;0;174.74;154.79;10.16;1053.5;776.35;56;46.6
213.74;0;174.74;154.79;10.16;1053.5;776.35;100;50.1
213.5;0;174.24;154.61;11.66;1052.3;775.48;3;17.4
213.5;0;174.24;154.61;11.66;1052.3;775.48;14;33.7
213.5;0;174.24;154.61;11.66;1052.3;775.48;28;45.9
213.5;0;174.24;154.61;11.66;1052.3;775.48;56;51.4
213.5;0;174.24;154.61;11.66;1052.3;775.48;100;59.3
277.19;97.82;24.46;160.7;11.19;1061.7;782.46;3;30.4
277.19;97.82;24.46;160.7;11.19;1061.7;782.46;14;47.7
277.19;97.82;24.46;160.7;11.19;1061.7;782.46;28;63.1
277.19;97.82;24.46;160.7;11.19;1061.7;782.46;56;66.8
277.19;97.82;24.46;160.7;11.19;1061.7;782.46;100;66.9
218.23;54.64;123.78;140.75;11.91;1075.7;792.67;3;27.4
218.23;54.64;123.78;140.75;11.91;1075.7;792.67;14;36
218.23;54.64;123.78;140.75;11.91;1075.7;792.67;28;55.5
218.23;54.64;123.78;140.75;11.91;1075.7;792.67;56;62
218.23;54.64;123.78;140.75;11.91;1075.7;792.67;100;63.5
214.9;53.8;121.89;155.63;9.61;1014.3;780.58;3;18
214.9;53.8;121.89;155.63;9.61;1014.3;780.58;14;38.6
214.9;53.8;121.89;155.63;9.61;1014.3;780.58;28;52.2
214.9;53.8;121.89;155.63;9.61;1014.3;780.58;56;54
214.9;53.8;121.89;155.63;9.61;1014.3;780.58;100;56.6
218.85;0;124.13;158.49;11.33;1078.7;794.91;3;15.3
218.85;0;124.13;158.49;11.33;1078.7;794.91;14;26
218.85;0;124.13;158.49;11.33;1078.7;794.91;28;30.2
218.85;0;124.13;158.49;11.33;1078.7;794.91;56;37.3
218.85;0;124.13;158.49;11.33;1078.7;794.91;100;46.2
376;0;0;214.6;0;1003.5;762.36;3;16.3
376;0;0;214.6;0;1003.5;762.36;14;25.6
376;0;0;214.6;0;1003.5;762.36;28;32
376;0;0;214.6;0;1003.5;762.36;56;36.3
376;0;0;214.6;0;1003.5;762.36;100;43.1
500;0;0;140;4;966;853;28;67.6
475;0;59;142;1.9;1098;641;28;57.2
315;137;0;145;5.9;1130;745;28;81.8
505;0;60;195;0;1030;630;28;64
451;0;0;165;11.25;1030;745;28;78.8
516;0;0;162;8.2;801;802;28;41.4
520;0;0;170;5.2;855;855;28;60.3
528;0;0;185;6.86;920;720;28;56.8
520;0;0;175;5.2;870;805;28;51
385;0;136;158;20;903;768;28;55.6
500.1;0;0;200;3;1124.4;613.2;28;44.1
450.1;50;0;200;3;1124.4;613.2;28;39.4
397;17.2;158;167;20.8;967;633;28;55.6
333;17.5;163;167;17.9;996;652;28;47.3
334;17.6;158;189;15.3;967;633;28;44.3
405;0;0;175;0;1120;695;28;52.3
200;200;0;190;0;1145;660;28;49.2
516;0;0;162;8.26;801;802;28;41.4
145;116;119;184;5.7;833;880;28;29.2
160;128;122;182;6.4;824;879;28;39.4
234;156;0;189;5.85;981;760;28;39.3
250;180;95;159;9.45;860;800;28;67.9
475;0;0;162;9.5;1044;662;28;58.5
285;190;0;163;7.6;1031;685;28;53.6
356;119;0;160;9.03;1061;657;28;59
275;180;120;162;10.35;830;765;28;76.2
500;0;0;151;9;1033;655;28;69.8
165;0.02;143.57;163.81;0;1005.6;900.9;3;14.4
165;128.5;132.1;175.06;8.08;1005.8;746.6;3;19.4
178.03;129.8;118.6;179.94;3.57;1007.3;746.8;3;20.7
167.35;129.9;128.62;175.46;7.79;1006.3;746.6;3;14.9
172.38;13.61;172.37;156.76;4.14;1006.3;856.4;3;21.3
173.54;50.05;173.53;164.77;6.47;1006.2;793.5;3;23.1
167;75.4;167;164.03;7.91;1007.3;770.1;3;15.5
173.81;93.37;159.9;172.34;9.73;1007.2;746.6;3;15.8
190.34;0;125.18;166.61;9.88;1079;798.9;3;12.5
250;0;95.69;191.84;5.33;948.9;857.2;3;8.5
213.5;0;174.24;159.21;11.66;1043.6;771.9;3;15.6
194.68;0;100.52;170.17;7.48;998;901.8;3;12.2
251.37;0;118.27;192.94;5.75;1043.6;754.3;3;12
165;0.02;143.57;163.81;0;1005.6;900.9;14;16.9
165;128.5;132.1;175.06;8.08;1005.8;746.6;14;33.1
178.03;129.8;118.6;179.94;3.57;1007.3;746.8;14;34.2
167.35;129.9;128.62;175.46;7.79;1006.3;746.6;14;31.8
172.38;13.61;172.37;156.76;4.14;1006.3;856.4;14;29.8
173.54;50.05;173.53;164.77;6.47;1006.2;793.5;14;33
167;75.4;167;164.03;7.91;1007.3;770.1;14;32.9
173.81;93.37;159.9;172.34;9.73;1007.2;746.6;14;29.6
190.34;0;125.18;166.61;9.88;1079;798.9;14;19.4
250;0;95.69;191.84;5.33;948.9;857.2;14;24.7
213.5;0;174.24;159.21;11.66;1043.6;771.9;14;29.6
194.68;0;100.52;170.17;7.48;998;901.8;14;24.3
251.37;0;118.27;192.94;5.75;1043.6;754.3;14;20.7
165;0.02;143.57;163.81;0;1005.6;900.9;28;26.2
165;128.5;132.1;175.06;8.08;1005.8;746.6;28;46.4
178.03;129.8;118.6;179.94;3.57;1007.3;746.8;28;39.2
167.35;129.9;128.62;175.46;7.79;1006.3;746.6;28;41.2
172.38;13.61;172.37;156.76;4.14;1006.3;856.4;28;33.7
173.54;50.05;173.53;164.77;6.47;1006.2;793.5;28;38.2
167;75.4;167;164.03;7.91;1007.3;770.1;28;41.4
173.81;93.37;159.9;172.34;9.73;1007.2;746.6;28;37.8
190.34;0;125.18;166.61;9.88;1079;798.9;28;24.8
250;0;95.69;191.84;5.33;948.9;857.2;28;27.2
213.5;0;174.24;159.21;11.66;1043.6;771.9;28;44.6
194.68;0;100.52;170.17;7.48;998;901.8;28;37.3
251.37;0;118.27;192.94;5.75;1043.6;754.3;28;33.3
165;0.02;143.57;163.81;0;1005.6;900.9;56;36.6
165;128.5;132.1;175.06;8.08;1005.8;746.6;56;53.7
178.03;129.8;118.6;179.94;3.57;1007.3;746.8;56;48.6
167.35;129.9;128.62;175.46;7.79;1006.3;746.6;56;51.7
172.38;13.61;172.37;156.76;4.14;1006.3;856.4;56;35.9
173.54;50.05;173.53;164.77;6.47;1006.2;793.5;56;53.8
167;75.4;167;164.03;7.91;1007.3;770.1;56;53.5
173.81;93.37;159.9;172.34;9.73;1007.2;746.6;56;49
190.34;0;125.18;166.61;9.88;1079;798.9;56;31.7
250;0;95.69;191.84;5.33;948.9;857.2;56;39.6
213.5;0;174.24;159.21;11.66;1043.6;771.9;56;51.3
194.68;0;100.52;170.17;7.48;998;901.8;56;43.4
251.37;0;118.27;192.94;5.75;1043.6;754.3;56;39.3
165;0.02;143.57;163.81;0;1005.6;900.9;100;38
165;128.5;132.1;175.06;8.08;1005.8;746.6;100;55
178.03;129.8;118.6;179.94;3.57;1007.3;746.8;100;50
167.35;129.9;128.62;175.46;7.79;1006.3;746.6;100;53.7
172.38;13.61;172.37;156.76;4.14;1006.3;856.4;100;37.7
173.54;50.05;173.53;164.77;6.47;1006.2;793.5;100;56.1
167;75.4;167;164.03;7.91;1007.3;770.1;100;56.8
173.81;93.37;159.9;172.34;9.73;1007.2;746.6;100;50.9
190.34;0;125.18;166.61;9.88;1079;798.9;100;33.6
250;0;95.69;191.84;5.33;948.9;857.2;100;41.2
213.5;0;174.24;159.21;11.66;1043.6;771.9;100;53
194.68;0;100.52;170.17;7.48;998;901.8;100;44.3
251.37;0;118.27;192.94;5.75;1043.6;754.3;100;40.1
446;24;79;162;11.61;967;712;28;57
446;24;79;162;11.64;967;712;28;44.4
446;24;79;162;11.64;967;712;28;51
446;24;79;162;10.3;967;712;28;53.4
446;24;79;162;11.61;967;712;3;35.4
446;24;79;162;11.64;967;712;3;25
446;24;79;162;11.64;967;712;3;23.3
446;24;79;162;11.61;967;712;7;52
446;24;79;162;11.64;967;712;7;38
446;24;79;162;11.64;967;712;7;39.3
446;24;79;162;11.61;967;712;56;61.1
446;24;79;162;11.64;967;712;56;56.1
446;24;79;162;11.64;967;712;56;55.3
446;24;79;162;10.3;967;712;56;54.8
387;20;94;157;14.32;938;845;28;50.2
387;20;94;157;13.93;938;845;28;46.7
387;20;94;157;11.61;938;845;28;46.7
387;20;94;157;14.32;938;845;3;22.8
387;20;94;157;13.93;938;845;3;25.5
387;20;94;157;11.61;938;845;3;34.8
387;20;94;157;14.32;938;845;7;36.8
387;20;94;157;13.93;938;845;7;45.9
387;20;94;157;11.61;938;845;7;41.7
387;20;94;157;14.32;938;845;56;56.3
387;20;94;157;13.93;938;845;56;48
387;20;94;157;11.61;938;845;56;61.5
355;19;97;145;13.13;967;871;28;44
355;19;97;145;12.25;967;871;28;55.5
491;26;123;210;3.93;882;699;28;55.6
491;26;123;201;3.93;822;699;28;57.9
491;26;123;210;3.93;882;699;3;25.6
491;26;123;210;3.93;882;699;7;33.5
491;26;123;210;3.93;882;699;56;59.6
491;26;123;201;3.93;822;699;3;29.5
491;26;123;201;3.93;822;699;7;37.9
491;26;123;201;3.93;822;699;56;61.9
424;22;132;178;8.48;822;750;28;62.1
424;22;132;178;8.48;882;750;3;32
424;22;132;168;8.92;822;750;28;72.1
424;22;132;178;8.48;822;750;7;39
424;22;132;178;8.48;822;750;56;65.7
424;22;132;168;8.92;822;750;3;32.1
424;22;132;168;8.92;822;750;7;40.3
424;22;132;168;8.92;822;750;56;74.4
202;11;141;206;1.72;942;801;28;22
202;11;141;206;1.72;942;801;3;9.8
202;11;141;206;1.72;942;801;7;15.1
202;11;141;206;1.72;942;801;56;23.2
284;15;141;179;5.46;842;801;28;43.7
284;15;141;179;5.46;842;801;3;13.4
284;15;141;179;5.46;842;801;7;24.1
284;15;141;179;5.46;842;801;56;44.5
359;19;141;154;10.91;942;801;28;62.9
359;19;141;154;10.91;942;801;28;59.5
359;19;141;154;10.91;942;801;3;25.1
359;19;141;154;10.91;942;801;3;23.6
359;19;141;154;10.91;942;801;7;35.8
359;19;141;154;10.91;942;801;7;38.6
359;19;141;154;10.91;942;801;56;68.8
359;19;141;154;10.91;942;801;56;66.8
436;0;0;218;0;838.4;719.7;28;23.8
289;0;0;192;0;913.2;895.3;90;32.1
289;0;0;192;0;913.2;895.3;3;11.7
393;0;0;192;0;940.6;785.6;3;19.2
393;0;0;192;0;940.6;785.6;90;48.8
393;0;0;192;0;940.6;785.6;28;39.6
480;0;0;192;0;936.2;712.2;28;43.9
480;0;0;192;0;936.2;712.2;7;34.6
480;0;0;192;0;936.2;712.2;90;54.3
480;0;0;192;0;936.2;712.2;3;24.4
333;0;0;192;0;931.2;842.6;3;15.6
255;0;0;192;0;889.8;945;90;21.9
255;0;0;192;0;889.8;945;7;10.2
289;0;0;192;0;913.2;895.3;7;14.6
255;0;0;192;0;889.8;945;28;18.7
333;0;0;192;0;931.2;842.6;28;32
333;0;0;192;0;931.2;842.6;7;23.4
289;0;0;192;0;913.2;895.3;28;25.6
333;0;0;192;0;931.2;842.6;90;41.7
393;0;0;192;0;940.6;785.6;7;27.7
255;0;0;192;0;889.8;945;3;8.2
158.8;238.2;0;185.7;0;1040.6;734.3;7;9.6
239.6;359.4;0;185.7;0;941.6;664.3;7;25.4
238.2;158.8;0;185.7;0;1040.6;734.3;7;15.7
181.9;272.8;0;185.7;0;1012.4;714.3;28;27.9
193.5;290.2;0;185.7;0;998.2;704.3;28;32.6
255.5;170.3;0;185.7;0;1026.6;724.3;7;17.2
272.8;181.9;0;185.7;0;1012.4;714.3;7;19.8
239.6;359.4;0;185.7;0;941.6;664.3;28;39.4
220.8;147.2;0;185.7;0;1055;744.3;28;25.7
397;0;0;185.7;0;1040.6;734.3;28;33.1
382.5;0;0;185.7;0;1047.8;739.3;7;24.1
210.7;316.1;0;185.7;0;977;689.3;7;21.8
158.8;238.2;0;185.7;0;1040.6;734.3;28;21.1
295.8;0;0;185.7;0;1091.4;769.3;7;14.8
255.5;170.3;0;185.7;0;1026.6;724.3;28;32.1
203.5;135.7;0;185.7;0;1076.2;759.3;7;12
397;0;0;185.7;0;1040.6;734.3;7;25.4
381.4;0;0;185.7;0;1104.6;784.3;28;22.5
295.8;0;0;185.7;0;1091.4;769.3;28;25.2
228;342.1;0;185.7;0;955.8;674.3;28;39.7
220.8;147.2;0;185.7;0;1055;744.3;7;13.1
316.1;210.7;0;185.7;0;977;689.3;28;38.7
135.7;203.5;0;185.7;0;1076.2;759.3;7;7.5
238.1;0;0;185.7;0;1118.8;789.3;28;17.6
339.2;0;0;185.7;0;1069.2;754.3;7;21.2
135.7;203.5;0;185.7;0;1076.2;759.3;28;18.2
193.5;290.2;0;185.7;0;998.2;704.3;7;17.2
203.5;135.7;0;185.7;0;1076.2;759.3;28;22.6
290.2;193.5;0;185.7;0;998.2;704.3;7;21.9
181.9;272.8;0;185.7;0;1012.4;714.3;7;12.4
170.3;155.5;0;185.7;0;1026.6;724.3;28;25.7
210.7;316.1;0;185.7;0;977;689.3;28;37.8
228;342.1;0;185.7;0;955.8;674.3;7;21.9
290.2;193.5;0;185.7;0;998.2;704.3;28;33
381.4;0;0;185.7;0;1104.6;784.3;7;14.5
238.2;158.8;0;185.7;0;1040.6;734.3;28;26.9
186.2;124.1;0;185.7;0;1083.4;764.3;7;8
339.2;0;0;185.7;0;1069.2;754.3;28;31.9
238.1;0;0;185.7;0;1118.8;789.3;7;10.3
252.5;0;0;185.7;0;1111.6;784.3;28;19.8
382.5;0;0;185.7;0;1047.8;739.3;28;37.4
252.5;0;0;185.7;0;1111.6;784.3;7;11.5
316.1;210.7;0;185.7;0;977;689.3;7;24.4
186.2;124.1;0;185.7;0;1083.4;764.3;28;17.6
170.3;155.5;0;185.7;0;1026.6;724.3;7;10.7
272.8;181.9;0;185.7;0;1012.4;714.3;28;31.4
339;0;0;197;0;968;781;3;13.2
339;0;0;197;0;968;781;7;21
339;0;0;197;0;968;781;14;27
339;0;0;197;0;968;781;28;32
339;0;0;197;0;968;781;90;35.2
339;0;0;197;0;968;781;180;36.4
339;0;0;197;0;968;781;365;38.9
236;0;0;194;0;968;885;3;6.5
236;0;0;194;0;968;885;14;12.8
236;0;0;194;0;968;885;28;18.4
236;0;0;194;0;968;885;90;21.9
236;0;0;193;0;968;885;180;24.1
236;0;0;193;0;968;885;365;25.1
277;0;0;191;0;968;856;14;21.3
277;0;0;191;0;968;856;28;26
277;0;0;191;0;968;856;3;11.4
277;0;0;191;0;968;856;90;31.3
277;0;0;191;0;968;856;180;32.3
277;0;0;191;0;968;856;360;33.7
254;0;0;198;0;968;863;3;9.3
254;0;0;198;0;968;863;90;26.9
254;0;0;198;0;968;863;180;27.6
254;0;0;198;0;968;863;365;29.8
307;0;0;193;0;968;812;180;34.5
307;0;0;193;0;968;812;365;36.1
307;0;0;193;0;968;812;3;12.5
307;0;0;193;0;968;812;28;27.5
307;0;0;193;0;968;812;90;32.9
236;0;0;193;0;968;885;7;10
200;0;0;180;0;1125;845;7;7.8
200;0;0;180;0;1125;845;28;12.2
225;0;0;181;0;1113;833;7;11.2
225;0;0;181;0;1113;833;28;17.3
325;0;0;184;0;1063;783;7;17.5
325;0;0;184;0;1063;783;28;30.6
275;0;0;183;0;1088;808;7;14.2
275;0;0;183;0;1088;808;28;24.5
300;0;0;184;0;1075;795;7;15.6
300;0;0;184;0;1075;795;28;26.8
375;0;0;186;0;1038;758;7;26.1
375;0;0;186;0;1038;758;28;38.2
400;0;0;187;0;1025;745;28;43.7
400;0;0;187;0;1025;745;7;30.1
250;0;0;182;0;1100;820;7;12.7
250;0;0;182;0;1100;820;28;20.9
350;0;0;186;0;1050;770;7;20.3
350;0;0;186;0;1050;770;28;34.3
203.5;305.3;0;203.5;0;963.4;630;7;19.5
250.2;166.8;0;203.5;0;977.6;694.1;90;47.7
157;236;0;192;0;935.4;781.2;90;43.4
141.3;212;0;203.5;0;971.8;748.5;28;29.9
166.8;250.2;0;203.5;0;975.6;692.6;3;6.9
122.6;183.9;0;203.5;0;958.2;800.1;90;33.2
183.9;122.6;0;203.5;0;959.2;800;3;4.9
102;153;0;192;0;887;942;3;4.6
102;153;0;192;0;887;942;90;25.5
122.6;183.9;0;203.5;0;958.2;800.1;28;24.3
166.8;250.2;0;203.5;0;975.6;692.6;28;33.9
200;133;0;192;0;965.4;806.2;3;11.4
108.3;162.4;0;203.5;0;938.2;849;28;20.6
305.3;203.5;0;203.5;0;965.4;631;7;25.9
108.3;162.4;0;203.5;0;938.2;849;90;29.2
116;173;0;192;0;909.8;891.9;90;31
141.3;212;0;203.5;0;971.8;748.5;7;10.4
157;236;0;192;0;935.4;781.2;28;33.7
133;200;0;192;0;927.4;839.2;28;27.9
250.2;166.8;0;203.5;0;977.6;694.1;7;19.4
173;116;0;192;0;946.8;856.8;7;11.4
192;288;0;192;0;929.8;716.1;3;12.8
192;288;0;192;0;929.8;716.1;28;39.3
153;102;0;192;0;888;943.1;3;4.8
288;192;0;192;0;932;717.8;3;16.1
305.3;203.5;0;203.5;0;965.4;631;28;43.4
236;157;0;192;0;972.6;749.1;7;20.4
173;116;0;192;0;946.8;856.8;3;6.9
212;141.3;0;203.5;0;973.4;750;7;15
236;157;0;192;0;972.6;749.1;3;13.6
183.9;122.6;0;203.5;0;959.2;800;90;32.5
166.8;250.2;0;203.5;0;975.6;692.6;7;15.7
102;153;0;192;0;887;942;7;7.7
288;192;0;192;0;932;717.8;28;38.8
212;141.3;0;203.5;0;973.4;750;28;33
102;153;0;192;0;887;942;28;17.3
173;116;0;192;0;946.8;856.8;28;24.3
183.9;122.6;0;203.5;0;959.2;800;28;24
133;200;0;192;0;927.4;839.2;90;36.6
192;288;0;192;0;929.8;716.1;90;50.7
133;200;0;192;0;927.4;839.2;7;13.7
305.3;203.5;0;203.5;0;965.4;631;3;14.1
236;157;0;192;0;972.6;749.1;90;47.8
108.3;162.4;0;203.5;0;938.2;849;3;2.3
157;236;0;192;0;935.4;781.2;7;16.9
288;192;0;192;0;932;717.8;7;23.5
212;141.3;0;203.5;0;973.4;750;3;6.8
212;141.3;0;203.5;0;973.4;750;90;39.7
153;102;0;192;0;888;943.1;28;18
236;157;0;192;0;972.6;749.1;28;32.9
116;173;0;192;0;909.8;891.9;28;22.3
183.9;122.6;0;203.5;0;959.2;800;7;10.8
108.3;162.4;0;203.5;0;938.2;849;7;7.7
203.5;305.3;0;203.5;0;963.4;630;28;41.7
203.5;305.3;0;203.5;0;963.4;630;3;9.6
133;200;0;192;0;927.4;839.2;3;6.9
288;192;0;192;0;932;717.8;90;50.5
200;133;0;192;0;965.4;806.2;7;17.2
200;133;0;192;0;965.4;806.2;28;30.4
250.2;166.8;0;203.5;0;977.6;694.1;3;9.7
122.6;183.9;0;203.5;0;958.2;800.1;3;3.3
153;102;0;192;0;888;943.1;90;26.3
200;133;0;192;0;965.4;806.2;90;43.3
116;173;0;192;0;909.8;891.9;3;6.3
173;116;0;192;0;946.8;856.8;90;32.1
250.2;166.8;0;203.5;0;977.6;694.1;28;37
305.3;203.5;0;203.5;0;965.4;631;90;54.6
192;288;0;192;0;929.8;716.1;7;21.5
157;236;0;192;0;935.4;781.2;3;9.7
153;102;0;192;0;888;943.1;7;8.4
141.3;212;0;203.5;0;971.8;748.5;90;39.7
116;173;0;192;0;909.8;891.9;7;10.1
141.3;212;0;203.5;0;971.8;748.5;3;4.8
122.6;183.9;0;203.5;0;958.2;800.1;7;10.4
166.8;250.2;0;203.5;0;975.6;692.6;90;43.6
203.5;305.3;0;203.5;0;963.4;630;90;51.9
310;0;0;192;0;1012;830;3;11.9
310;0;0;192;0;1012;830;7;17.2
310;0;0;192;0;1012;830;28;27.8
310;0;0;192;0;1012;830;90;35.8
310;0;0;192;0;1012;830;120;38.7
331;0;0;192;0;1025;821;3;14.3
331;0;0;192;0;1025;821;7;17.4
331;0;0;192;0;1025;821;28;31.7
331;0;0;192;0;1025;821;90;37.9
331;0;0;192;0;1025;821;120;39.4
349;0;0;192;0;1056;809;3;15.9
349;0;0;192;0;1056;809;7;9
349;0;0;192;0;1056;809;28;33.6
349;0;0;192;0;1056;809;90;40.7
349;0;0;192;0;1056;809;120;40.9
238;0;0;186;0;1119;789;7;12.1
238;0;0;186;0;1119;789;28;17.5
296;0;0;186;0;1090;769;7;18.9
296;0;0;186;0;1090;769;28;25.2
297;0;0;186;0;1040;734;7;31
480;0;0;192;0;936;721;28;43.9
480;0;0;192;0;936;721;90;54.3
397;0;0;186;0;1040;734;28;36.9
281;0;0;186;0;1104;774;7;14.5
281;0;0;185;0;1104;774;28;22.4
500;0;0;200;0;1125;613;1;12.6
500;0;0;200;0;1125;613;3;26.1
500;0;0;200;0;1125;613;7;33.2
500;0;0;200;0;1125;613;14;36.9
500;0;0;200;0;1125;613;28;44.1
540;0;0;173;0;1125;613;7;52.6
540;0;0;173;0;1125;613;14;59.8
540;0;0;173;0;1125;613;28;67.3
540;0;0;173;0;1125;613;90;69.7
540;0;0;173;0;1125;613;180;71.6
540;0;0;173;0;1125;613;270;74.2
350;0;0;203;0;974;775;7;18.1
350;0;0;203;0;974;775;14;22.5
350;0;0;203;0;974;775;28;27.3
350;0;0;203;0;974;775;56;30
350;0;0;203;0;974;775;90;31.4
350;0;0;203;0;974;775;180;32.7
385;0;0;186;0;966;763;1;6.3
385;0;0;186;0;966;763;3;14.7
385;0;0;186;0;966;763;7;23.2
385;0;0;186;0;966;763;14;27.9
385;0;0;186;0;966;763;28;31.4
331;0;0;192;0;978;825;180;39
331;0;0;192;0;978;825;360;41.2
349;0;0;192;0;1047;806;3;15
331;0;0;192;0;978;825;3;13.5
382;0;0;186;0;1047;739;7;24
382;0;0;186;0;1047;739;28;37.4
382;0;0;186;0;1111;784;7;11.5
281;0;0;186;0;1104;774;28;22.4
339;0;0;185;0;1069;754;7;21.2
339;0;0;185;0;1069;754;28;31.8
295;0;0;185;0;1069;769;7;14.8
295;0;0;185;0;1069;769;28;25.2
238;0;0;185;0;1118;789;28;17.5
296;0;0;192;0;1085;765;7;14.2
296;0;0;192;0;1085;765;28;21.6
296;0;0;192;0;1085;765;90;29.4
331;0;0;192;0;879;825;3;13.5
331;0;0;192;0;978;825;7;16.3
331;0;0;192;0;978;825;28;31.4
331;0;0;192;0;978;825;90;37.2
349;0;0;192;0;1047;806;7;18.1
349;0;0;192;0;1047;806;28;32.7
349;0;0;192;0;1047;806;90;39.5
349;0;0;192;0;1047;806;180;41.1
349;0;0;192;0;1047;806;360;42.1
302;0;0;203;0;974;817;14;18.1
302;0;0;203;0;974;817;180;26.7
525;0;0;189;0;1125;613;180;61.9
500;0;0;200;0;1125;613;90;47.2
500;0;0;200;0;1125;613;180;51
500;0;0;200;0;1125;613;270;55.2
540;0;0;173;0;1125;613;3;41.6
252;0;0;185;0;1111;784;7;13.7
252;0;0;185;0;1111;784;28;19.7
339;0;0;185;0;1060;754;28;31.6
393;0;0;192;0;940;758;3;19.1
393;0;0;192;0;940;758;28;39.6
393;0;0;192;0;940;758;90;48.8
382;0;0;185;0;1047;739;7;24
382;0;0;185;0;1047;739;28;37.4
252;0;0;186;0;1111;784;7;11.5
252;0;0;185;0;1111;784;28;19.7
310;0;0;192;0;970;850;7;15
310;0;0;192;0;970;850;28;27.9
310;0;0;192;0;970;850;90;34.7
310;0;0;192;0;970;850;180;37.3
310;0;0;192;0;970;850;360;38.1
525;0;0;189;0;1125;613;3;33.8
525;0;0;189;0;1125;613;7;42.4
525;0;0;189;0;1125;613;14;48.4
525;0;0;189;0;1125;613;28;55.9
525;0;0;189;0;1125;613;90;58.8
525;0;0;189;0;1125;613;270;67.1
322;0;0;203;0;974;800;14;20.8
322;0;0;203;0;974;800;28;25.2
322;0;0;203;0;974;800;180;29.6
302;0;0;203;0;974;817;28;21.8
397;0;0;185;0;1040;734;28;39.1
480;0;0;192;0;936;721;3;24.4
522;0;0;146;0;896;896;7;50.5
522;0;0;146;0;896;896;28;75
273;105;82;210;9;904;680;28;37.2
162;190;148;179;19;838;741;28;33.8
154;144;112;220;10;923;658;28;16.5
147;115;89;202;9;860;829;28;20
152;178;139;168;18;944;695;28;36.3
310;143;111;168;22;914;651;28;33.7
144;0;175;158;18;943;844;28;15.4
304;140;0;214;6;895;722;28;33.4
374;0;0;190;7;1013;730;28;39.1
159;149;116;175;15;953;720;28;27.7
153;239;0;200;6;1002;684;28;26.9
310;143;0;168;10;914;804;28;45.3
305;0;100;196;10;959;705;28;30.1
151;0;184;167;12;991;772;28;15.6
142;167;130;174;11;883;785;28;44.6
298;137;107;201;6;878;655;28;53.5
321;164;0;190;5;870;774;28;57.2
366;187;0;191;7;824;757;28;65.9
280;129;100;172;9;825;805;28;52.8
252;97;76;194;8;835;821;28;33.4
165;0;150;182;12;1023;729;28;18
156;243;0;180;11;1022;698;28;37.4
160;188;146;203;11;829;710;28;32.8
298;0;107;186;6;879;815;28;42.6
318;0;126;210;6;861;737;28;40.1
287;121;94;188;9;904;696;28;41.9
326;166;0;174;9;882;790;28;61.2
356;0;142;193;11;801;778;28;40.9
132;207;161;179;5;867;736;28;33.3
322;149;0;186;8;951;709;28;52.4
164;0;200;181;13;849;846;28;15.1
314;0;113;170;10;925;783;28;38.5
321;0;128;182;11;870;780;28;37.3
140;164;128;237;6;869;656;28;35.2
288;121;0;177;7;908;829;28;42.1
298;0;107;210;11;880;744;28;31.9
265;111;86;195;6;833;790;28;41.5
160;250;0;168;12;1049;688;28;39.5
166;260;0;183;13;859;827;28;37.9
276;116;90;180;9;870;768;28;44.3
322;0;116;196;10;818;813;28;31.2
149;139;109;193;6;892;780;28;23.7
159;187;0;176;11;990;789;28;32.8
261;100;78;201;9;864;761;28;32.4
237;92;71;247;6;853;695;28;28.6
313;0;113;178;8;1002;689;28;36.8
155;183;0;193;9;1047;697;28;18.3
146;230;0;202;3;827;872;28;33.1
296;0;107;221;11;819;778;28;31.4
133;210;0;196;3;949;795;28;31
313;145;0;178;8;867;824;28;44.4
152;0;112;184;8;992;816;28;12.2
153;145;113;178;8;1002;689;28;25.6
140;133;103;200;7;916;753;28;36.4
149;236;0;176;13;847;893;28;33
300;0;120;212;10;878;728;28;23.8
153;145;113;178;8;867;824;28;26.2
148;0;137;158;16;1002;830;28;18
326;0;138;199;11;801;792;28;40.7
153;145;0;178;8;1000;822;28;19
262;111;86;195;5;895;733;28;33.7
158;0;195;220;11;898;713;28;8.5
151;0;185;167;16;1074;678;28;13.5
273;0;90;199;11;931;762;28;32.2
149;118;92;183;7;953;780;28;23.5
143;169;143;191;8;967;643;28;29.7
260;101;78;171;10;936;763;28;49.8
313;161;0;178;10;917;759;28;52.4
284;120;0;168;7;970;794;28;40.9
336;0;0;182;3;986;817;28;44.9
145;0;134;181;11;979;812;28;13.2
150;237;0;174;12;1069;675;28;37.4
144;170;133;192;8;814;805;28;29.9
331;170;0;195;8;811;802;28;56.6
155;0;143;193;9;1047;697;28;12.5
155;183;0;193;9;877;868;28;23.8
135;0;166;180;10;961;805;28;13.3
266;112;87;178;10;910;745;28;39.4
314;145;113;179;8;869;690;28;46.2
313;145;0;127;8;1000;822;28;44.5
146;173;0;182;3;986;817;28;23.7
144;136;106;178;7;941;774;28;26.1
148;0;182;181;15;839;884;28;15.5
277;117;91;191;7;946;666;28;43.6
298;0;107;164;13;953;784;28;35.9
313;145;0;178;8;1002;689;28;41.1
155;184;143;194;9;880;699;28;29
289;134;0;195;6;924;760;28;46.2
148;175;0;171;2;1000;828;28;26.9
145;0;179;202;8;824;869;28;10.5
313;0;0;178;8;1000;822;28;25.1
136;162;126;172;10;923;764;28;29.1
155;0;143;193;9;877;868;28;9.7
255;99;77;189;6;919;749;28;33.8
162;207;172;216;10;822;638;28;39.8
136;196;98;199;6;847;783;28;27
164;163;128;197;8;961;641;28;27.2
162;214;164;202;10;820;680;28;30.6
157;214;152;200;9;819;704;28;33.1
149;153;194;192;8;935;623;28;24.6
135;105;193;196;6;965;643;28;21.9
159;209;161;201;7;848;669;28;30.9
144;15;195;176;6;1021;709;28;15.3
154;174;185;228;7;845;612;28;24.3
167;187;195;185;7;898;636;28;23.9
184;86;190;213;6;923;623;28;22.9
156;178;187;221;7;854;614;28;29.4
236.9;91.7;71.5;246.9;6;852.9;695.4;28;28.6
313.3;0;113;178.5;8;1001.9;688.7;28;36.8
154.8;183.4;0;193.3;9.1;1047.4;696.7;28;18.3
145.9;230.5;0;202.5;3.4;827;871.8;28;32.7
296;0;106.7;221.4;10.5;819.2;778.4;28;31.4
133.1;210.2;0;195.7;3.1;949.4;795.3;28;28.9
313.3;145;0;178.5;8;867.2;824;28;40.9
151.6;0;111.9;184.4;7.9;992;815.9;28;12.2
153.1;145;113;178.5;8;1001.9;688.7;28;25.6
139.9;132.6;103.3;200.3;7.4;916;753.4;28;36.4
149.5;236;0;175.8;12.6;846.8;892.7;28;33
299.8;0;119.8;211.5;9.9;878.2;727.6;28;23.8
153.1;145;113;178.5;8;867.2;824;28;26.2
148.1;0;136.6;158.1;16.1;1001.8;830.1;28;18
326.5;0;137.9;199;10.8;801.1;792.5;28;38.6
152.7;144.7;0;178.1;8;999.7;822.2;28;19
261.9;110.5;86.1;195.4;5;895.2;732.6;28;33.7
158.4;0;194.9;219.7;11;897.7;712.9;28;8.5
150.7;0;185.3;166.7;15.6;1074.5;678;28;13.5
272.6;0;89.6;198.7;10.6;931.3;762.2;28;32.2
149;117.6;91.7;182.9;7.1;953.4;780.3;28;23.5
143;169.4;142.7;190.7;8.4;967.4;643.5;28;29.7
259.9;100.6;78.4;170.6;10.4;935.7;762.9;28;49.8
312.9;160.5;0;177.6;9.6;916.6;759.5;28;52.4
284;119.7;0;168.3;7.2;970.4;794.2;28;40.9
336.5;0;0;181.9;3.4;985.8;816.8;28;44.9
144.8;0;133.6;180.8;11.1;979.5;811.5;28;13.2
150;236.8;0;173.8;11.9;1069.3;674.8;28;37.4
143.7;170.2;132.6;191.6;8.5;814.1;805.3;28;29.9
330.5;169.6;0;194.9;8.1;811;802.3;28;56.6
154.8;0;142.8;193.3;9.1;1047.4;696.7;28;12.5
154.8;183.4;0;193.3;9.1;877.2;867.7;28;23.8
134.7;0;165.7;180.2;10;961;804.9;28;13.3
266.2;112.3;87.5;177.9;10.4;909.7;744.5;28;39.4
314;145.3;113.2;178.9;8;869.1;690.2;28;46.2
312.7;144.7;0;127.3;8;999.7;822.2;28;44.5
145.7;172.6;0;181.9;3.4;985.8;816.8;28;23.7
143.8;136.3;106.2;178.1;7.5;941.5;774.3;28;26.1
148.1;0;182.1;181.4;15;838.9;884.3;28;15.5
277;116.8;91;190.6;7;946.5;665.6;28;43.6
298.1;0;107.5;163.6;12.8;953.2;784;28;35.9
313.3;145;0;178.5;8;1001.9;688.7;28;41.1
155.2;183.9;143.2;193.8;9.2;879.6;698.5;28;29
289;133.7;0;194.9;5.5;924.1;760.1;28;46.2
147.8;175.1;0;171.2;2.2;1000;828.5;28;26.9
145.4;0;178.9;201.7;7.8;824;868.7;28;10.5
312.7;0;0;178.1;8;999.7;822.2;28;25.1
136.4;161.6;125.8;171.6;10.4;922.6;764.4;28;29.1
154.8;0;142.8;193.3;9.1;877.2;867.7;28;9.7
255.3;98.8;77;188.6;6.5;919;749.3;28;33.8
272.8;105.1;81.8;209.7;9;904;679.7;28;37.2
162;190.1;148.1;178.8;18.8;838.1;741.4;28;33.8
153.6;144.2;112.3;220.1;10.1;923.2;657.9;28;16.5
146.5;114.6;89.3;201.9;8.8;860;829.5;28;20
151.8;178.1;138.7;167.5;18.3;944;694.6;28;36.3
309.9;142.8;111.2;167.8;22.1;913.9;651.2;28;38.2
143.6;0;174.9;158.4;17.9;942.7;844.5;28;15.4
303.6;139.9;0;213.5;6.2;895.5;722.5;28;33.4
374.3;0;0;190.2;6.7;1013.2;730.4;28;39.1
158.6;148.9;116;175.1;15;953.3;719.7;28;27.7
152.6;238.7;0;200;6.3;1001.8;683.9;28;26.9
310;142.8;0;167.9;10;914.3;804;28;45.3
304.8;0;99.6;196;9.8;959.4;705.2;28;30.1
150.9;0;183.9;166.6;11.6;991.2;772.2;28;15.6
141.9;166.6;129.7;173.5;10.9;882.6;785.3;28;44.6
297.8;137.2;106.9;201.3;6;878.4;655.3;28;53.5
321.3;164.2;0;190.5;4.6;870;774;28;57.2
366;187;0;191.3;6.6;824.3;756.9;28;65.9
279.8;128.9;100.4;172.4;9.5;825.1;804.9;28;52.8
252.1;97.1;75.6;193.8;8.3;835.5;821.4;28;33.4
164.6;0;150.4;181.6;11.7;1023.3;728.9;28;18
155.6;243.5;0;180.3;10.7;1022;697.7;28;37.4
160.2;188;146.4;203.2;11.3;828.7;709.7;28;35.3
298.1;0;107;186.4;6.1;879;815.2;28;42.6
317.9;0;126.5;209.7;5.7;860.5;736.6;28;40.1
287.3;120.5;93.9;187.6;9.2;904.4;695.9;28;43.8
325.6;166.4;0;174;8.9;881.6;790;28;61.2
355.9;0;141.6;193.3;11;801.4;778.4;28;40.9
132;206.5;160.9;178.9;5.5;866.9;735.6;28;33.3
322.5;148.6;0;185.8;8.5;951;709.5;28;52.4
164.2;0;200.1;181.2;12.6;849.3;846;28;15.1
313.8;0;112.6;169.9;10.1;925.3;782.9;28;38.5
321.4;0;127.9;182.5;11.5;870.1;779.7;28;37.3
139.7;163.9;127.7;236.7;5.8;868.6;655.6;28;35.2
288.4;121;0;177.4;7;907.9;829.5;28;42.1
298.2;0;107;209.7;11.1;879.6;744.2;28;31.9
264.5;111;86.5;195.5;5.9;832.6;790.4;28;41.5
159.8;250;0;168.4;12.2;1049.3;688.2;28;39.5
166;259.7;0;183.2;12.7;858.8;826.8;28;37.9
276.4;116;90.3;179.6;8.9;870.1;768.3;28;44.3
322.2;0;115.6;196;10.4;817.9;813.4;28;31.2
148.5;139.4;108.6;192.7;6.1;892.4;780;28;23.7
159.1;186.7;0;175.6;11.3;989.6;788.9;28;32.8
260.9;100.5;78.3;200.6;8.6;864.5;761.5;28;32.4